stair.thisTrialN,stair.stepSize,stair.intensity,thisRow.t,notes,trial.started,fixation.started,grating.started,key_resp.started,fixation.stopped,grating.stopped,trial.stopped,corrAns,tilt,key_resp.corr,stair.response,key_resp.rt,participant,session,date,expName,psychopyVersion,frameRate,expStart,
0,2,10.0,0.03014429984614253,,0.011799899861216545,0.03014429984614253,0.5693684997968376,0.5693684997968376,0.5798415997996926,0.8799997000023723,1.5029489998705685,right,10.0,1,1,0.8412212000694126,212331,001,2024-09-10_16h50.04.560,adpative_staircase,2024.1.5,None,2024-09-10 16h50.09.711597 +0530,
1,2,8.0,1.5115670999512076,,1.503131799865514,1.5115670999512076,2.012947699986398,2.012947699986398,2.012947699986398,2.3127536999527365,2.73210239992477,left,-8.0,1,1,0.7143692001700401,212331,001,2024-09-10_16h50.04.560,adpative_staircase,2024.1.5,None,2024-09-10 16h50.09.711597 +0530,
2,1,6.0,2.7459869999438524,,2.7322064999025315,2.7459869999438524,3.2462418999057263,3.2462418999057263,3.2462418999057263,3.545477099949494,4.2311664998997,left,-6.0,0,0,0.9756386999506503,212331,001,2024-09-10_16h50.04.560,adpative_staircase,2024.1.5,None,2024-09-10 16h50.09.711597 +0530,
3,1,7.0,4.245948999887332,,4.231267999857664,4.245948999887332,4.74663079995662,4.74663079995662,4.74663079995662,5.045922399964184,5.530125299934298,left,-7.0,1,1,0.7731880000792444,212331,001,2024-09-10_16h50.04.560,adpative_staircase,2024.1.5,None,2024-09-10 16h50.09.711597 +0530,
4,1,7.0,5.545816299971193,,5.530205899849534,5.545816299971193,6.029337099986151,6.029337099986151,6.046166799962521,6.330541000002995,6.766415099846199,right,7.0,1,1,0.7353654000908136,212331,001,2024-09-10_16h50.04.560,adpative_staircase,2024.1.5,None,2024-09-10 16h50.09.711597 +0530,
5,1,7.0,6.779198999982327,,6.76652879989706,6.779198999982327,7.2798892999999225,7.2798892999999225,7.2798892999999225,7.579509899951518,7.949117899872363,right,7.0,1,1,0.6651905998587608,212331,001,2024-09-10_16h50.04.560,adpative_staircase,2024.1.5,None,2024-09-10 16h50.09.711597 +0530,
6,1,6.0,7.962645399849862,,7.9492334998212755,7.962645399849862,8.464035999961197,8.464035999961197,8.464035999961197,8.76299379998818,8.915440999902785,left,-6.0,1,1,0.44876589998602867,212331,001,2024-09-10_16h50.04.560,adpative_staircase,2024.1.5,None,2024-09-10 16h50.09.711597 +0530,
7,1,6.0,8.928786200005561,,8.915585099952295,8.928786200005561,9.430636999895796,9.430636999895796,9.430636999895796,9.730730599956587,9.897057899972424,right,6.0,1,1,0.4557018999475986,212331,001,2024-09-10_16h50.04.560,adpative_staircase,2024.1.5,None,2024-09-10 16h50.09.711597 +0530,
8,1,6.0,9.91269509983249,,9.897174099925905,9.91269509983249,10.397051299922168,10.397051299922168,10.413962899940088,10.697790900012478,10.86559859989211,left,-6.0,1,1,0.46523669990710914,212331,001,2024-09-10_16h50.04.560,adpative_staircase,2024.1.5,None,2024-09-10 16h50.09.711597 +0530,
9,1,5.0,10.879180899821222,,10.865705099888146,10.879180899821222,11.37958289985545,11.37958289985545,11.37958289985545,11.679720799904317,11.999161599902436,left,-5.0,1,1,0.6048934999853373,212331,001,2024-09-10_16h50.04.560,adpative_staircase,2024.1.5,None,2024-09-10 16h50.09.711597 +0530,
10,0.5,5.0,12.013614499941468,,11.999316199915484,12.013614499941468,12.51332369982265,12.51332369982265,12.51332369982265,12.813944999827072,13.14931849995628,right,5.0,0,0,0.6282925000414252,212331,001,2024-09-10_16h50.04.560,adpative_staircase,2024.1.5,None,2024-09-10 16h50.09.711597 +0530,
11,0.5,5.5,13.16391779994592,,13.149513099808246,13.16391779994592,13.664938599802554,13.664938599802554,13.664938599802554,13.981002599932253,14.266342599876225,left,-5.5,0,0,0.5940010999329388,212331,001,2024-09-10_16h50.04.560,adpative_staircase,2024.1.5,None,2024-09-10 16h50.09.711597 +0530,
12,0.5,6.0,14.280856899917126,,14.266546699916944,14.280856899917126,14.78047649981454,14.78047649981454,14.78047649981454,15.080568399978802,15.464867200003937,left,-6.0,1,1,0.6793468999676406,212331,001,2024-09-10_16h50.04.560,adpative_staircase,2024.1.5,None,2024-09-10 16h50.09.711597 +0530,
13,0.5,6.0,15.479683399898931,,15.465005999896675,15.479683399898931,15.980996300000697,15.980996300000697,15.980996300000697,16.280605899868533,16.43381839990616,left,-6.0,1,1,0.44796029990538955,212331,001,2024-09-10_16h50.04.560,adpative_staircase,2024.1.5,None,2024-09-10 16h50.09.711597 +0530,
14,0.5,6.0,16.447196000022814,,16.433989099925384,16.447196000022814,16.947413499932736,16.947413499932736,16.947413499932736,17.24705829983577,17.400951399933547,left,-6.0,1,1,0.4508562998380512,212331,001,2024-09-10_16h50.04.560,adpative_staircase,2024.1.5,None,2024-09-10 16h50.09.711597 +0530,
15,0.5,5.5,17.413359999889508,,17.401135799940675,17.413359999889508,17.914391399826854,17.914391399826854,17.914391399826854,18.21368799987249,18.43283739988692,right,5.5,1,1,0.5099291999358684,212331,001,2024-09-10_16h50.04.560,adpative_staircase,2024.1.5,None,2024-09-10 16h50.09.711597 +0530,
16,0.5,5.5,18.44743729988113,,18.433022300014272,18.44743729988113,18.93045929982327,18.93045929982327,18.947204599855468,19.23070459999144,19.416610199958086,right,5.5,1,1,0.4717564000748098,212331,001,2024-09-10_16h50.04.560,adpative_staircase,2024.1.5,None,2024-09-10 16h50.09.711597 +0530,
17,0.5,5.5,19.430272299796343,,19.416793199954554,19.430272299796343,19.931064900010824,19.931064900010824,19.931064900010824,20.230511899804696,20.699384299805388,left,-5.5,1,1,0.7533740000799298,212331,001,2024-09-10_16h50.04.560,adpative_staircase,2024.1.5,None,2024-09-10 16h50.09.711597 +0530,
18,0.5,5.0,20.713512799935415,,20.699559999862686,20.713512799935415,21.21418879996054,21.21418879996054,21.21418879996054,21.514873099979013,21.782072299858555,left,-5.0,1,1,0.5590433001052588,212331,001,2024-09-10_16h50.04.560,adpative_staircase,2024.1.5,None,2024-09-10 16h50.09.711597 +0530,
19,0.5,5.0,21.796966899884865,,21.782273999881,21.796966899884865,22.296603199793026,22.296603199793026,22.296603199793026,22.59690579981543,23.100232899887487,right,5.0,1,1,0.7990498000290245,212331,001,2024-09-10_16h50.04.560,adpative_staircase,2024.1.5,None,2024-09-10 16h50.09.711597 +0530,
20,0.5,5.0,23.11385570000857,,23.100414499873295,23.11385570000857,23.61359059996903,23.61359059996903,23.61359059996903,23.914061499992386,24.115805899957195,right,5.0,1,1,0.4911070999223739,212331,001,2024-09-10_16h50.04.560,adpative_staircase,2024.1.5,None,2024-09-10 16h50.09.711597 +0530,
21,0.5,4.5,24.130707199918106,,24.116021199850366,24.130707199918106,24.630717399995774,24.630717399995774,24.630717399995774,24.930535999825224,25.215823599835858,right,4.5,1,1,0.5771195001434535,212331,001,2024-09-10_16h50.04.560,adpative_staircase,2024.1.5,None,2024-09-10 16h50.09.711597 +0530,
22,0.5,4.5,25.23048679996282,,25.21600060001947,25.23048679996282,25.729876699857414,25.729876699857414,25.729876699857414,26.0303565999493,26.514179799938574,left,-4.5,1,1,0.7779146998655051,212331,001,2024-09-10_16h50.04.560,adpative_staircase,2024.1.5,None,2024-09-10 16h50.09.711597 +0530,
23,0.5,4.5,26.530896599870175,,26.514283099910244,26.530896599870175,27.028717399807647,27.028717399807647,27.045083099976182,27.32894349982962,27.479977399809286,right,4.5,1,1,0.4404495998751372,212331,001,2024-09-10_16h50.04.560,adpative_staircase,2024.1.5,None,2024-09-10 16h50.09.711597 +0530,
24,0.5,4.0,27.49524619989097,,27.480079900007695,27.49524619989097,27.979419599985704,27.979419599985704,27.995521599892527,28.279613699996844,28.646985800005496,right,4.0,1,1,0.6580610999371856,212331,001,2024-09-10_16h50.04.560,adpative_staircase,2024.1.5,None,2024-09-10 16h50.09.711597 +0530,
25,0.5,4.0,28.661648399895057,,28.647083699936047,28.661648399895057,29.162467799847946,29.162467799847946,29.162467799847946,29.462324099848047,29.696615200024098,right,4.0,1,1,0.5187025999184698,212331,001,2024-09-10_16h50.04.560,adpative_staircase,2024.1.5,None,2024-09-10 16h50.09.711597 +0530,
26,0.5,4.0,29.711239099968225,,29.696724999928847,29.711239099968225,30.19611979997717,30.19611979997717,30.21309440000914,30.495726499939337,30.563536599976942,right,4.0,1,1,0.35688139987178147,212331,001,2024-09-10_16h50.04.560,adpative_staircase,2024.1.5,None,2024-09-10 16h50.09.711597 +0530,
27,0.5,3.5,30.578812999883667,,30.563633899902925,30.578812999883667,31.07923259981908,31.07923259981908,31.07923259981908,31.38033299986273,31.81319209979847,right,3.5,0,0,0.722040600143373,212331,001,2024-09-10_16h50.04.560,adpative_staircase,2024.1.5,None,2024-09-10 16h50.09.711597 +0530,
28,0.5,4.0,31.82825389993377,,31.81329909991473,31.82825389993377,32.312167699914426,32.312167699914426,32.32844589999877,32.61217399989255,32.730305599980056,left,-4.0,1,1,0.4095922999549657,212331,001,2024-09-10_16h50.04.560,adpative_staircase,2024.1.5,None,2024-09-10 16h50.09.711597 +0530,
29,0.5,4.0,32.74545459984802,,32.73040409991518,32.74545459984802,33.24613350001164,33.24613350001164,33.24613350001164,33.54634279990569,33.612460299860686,left,-4.0,1,1,0.35610520001500845,212331,001,2024-09-10_16h50.04.560,adpative_staircase,2024.1.5,None,2024-09-10 16h50.09.711597 +0530,
30,0.5,4.0,33.62842239998281,,33.61254719994031,33.62842239998281,34.11231569992378,34.11231569992378,34.128797199809924,34.412396299885586,34.54650439997204,right,4.0,1,1,0.4269312999676913,212331,001,2024-09-10_16h50.04.560,adpative_staircase,2024.1.5,None,2024-09-10 16h50.09.711597 +0530,
31,0.5,3.5,34.561169099994004,,34.546605999814346,34.561169099994004,35.04596779984422,35.04596779984422,35.062106099911034,35.34555420000106,35.46619179984555,left,-3.5,1,1,0.40711600007489324,212331,001,2024-09-10_16h50.04.560,adpative_staircase,2024.1.5,None,2024-09-10 16h50.09.711597 +0530,
32,0.5,3.5,35.47954420000315,,35.4663621999789,35.47954420000315,35.97895039990544,35.97895039990544,35.97895039990544,36.27882769983262,36.48073059995659,left,-3.5,1,1,0.4886797999497503,212331,001,2024-09-10_16h50.04.560,adpative_staircase,2024.1.5,None,2024-09-10 16h50.09.711597 +0530,
33,0.5,3.5,36.49528279993683,,36.480848599923775,36.49528279993683,36.98010079981759,36.98010079981759,36.99673839984462,37.28204849991016,37.58222520002164,left,-3.5,1,1,0.5898008001968265,212331,001,2024-09-10_16h50.04.560,adpative_staircase,2024.1.5,None,2024-09-10 16h50.09.711597 +0530,
34,0.5,3.0,37.59728699992411,,37.582388299982995,37.59728699992411,38.096231899922714,38.096231899922714,38.096231899922714,38.396530699916184,38.58327449997887,right,3.0,1,1,0.4832893998827785,212331,001,2024-09-10_16h50.04.560,adpative_staircase,2024.1.5,None,2024-09-10 16h50.09.711597 +0530,
35,0.5,3.0,38.59669219981879,,38.58348849997856,38.59669219981879,39.096767199924216,39.096767199924216,39.096767199924216,39.3968304998707,39.56524319993332,right,3.0,0,0,0.45739879994653165,212331,001,2024-09-10_16h50.04.560,adpative_staircase,2024.1.5,None,2024-09-10 16h50.09.711597 +0530,
36,0.5,3.5,39.58025119989179,,39.565415299963206,39.58025119989179,40.080100199906155,40.080100199906155,40.080100199906155,40.38049909984693,40.600413099862635,right,3.5,1,1,0.517616500146687,212331,001,2024-09-10_16h50.04.560,adpative_staircase,2024.1.5,None,2024-09-10 16h50.09.711597 +0530,
37,0.5,3.5,40.61327289999463,,40.60058159986511,40.61327289999463,41.11338909994811,41.11338909994811,41.11338909994811,41.41312129981816,41.563996999990195,right,3.5,1,1,0.44025850016623735,212331,001,2024-09-10_16h50.04.560,adpative_staircase,2024.1.5,None,2024-09-10 16h50.09.711597 +0530,
38,0.5,3.5,41.57929109991528,,41.564168700017035,41.57929109991528,42.07916869991459,42.07916869991459,42.07916869991459,42.38014099979773,42.64862049999647,right,3.5,1,1,0.5611775999423116,212331,001,2024-09-10_16h50.04.560,adpative_staircase,2024.1.5,None,2024-09-10 16h50.09.711597 +0530,
39,0.5,3.0,42.66285279998556,,42.64882449992001,42.66285279998556,43.16229349980131,43.16229349980131,43.16229349980131,43.4618375999853,43.71373059996404,left,-3.0,1,1,0.5369551999028772,212331,001,2024-09-10_16h50.04.560,adpative_staircase,2024.1.5,None,2024-09-10 16h50.09.711597 +0530,
40,0.5,3.0,43.72833069995977,,43.71384799992666,43.72833069995977,44.22872789995745,44.22872789995745,44.22872789995745,44.52935169986449,44.63109279982746,left,-3.0,1,1,0.38671160000376403,212331,001,2024-09-10_16h50.04.560,adpative_staircase,2024.1.5,None,2024-09-10 16h50.09.711597 +0530,
41,0.5,3.0,44.6467044998426,,44.63124359981157,44.6467044998426,45.14516169996932,45.14516169996932,45.14516169996932,45.445121199823916,45.446953299921006,right,3.0,0,0,0.3002040002029389,212331,001,2024-09-10_16h50.04.560,adpative_staircase,2024.1.5,None,2024-09-10 16h50.09.711597 +0530,
42,0.5,3.5,45.4613252999261,,45.44706719997339,45.4613252999261,45.96175959985703,45.96175959985703,45.96175959985703,46.262875200016424,46.37961780000478,right,3.5,0,0,0.406115299789235,212331,001,2024-09-10_16h50.04.560,adpative_staircase,2024.1.5,None,2024-09-10 16h50.09.711597 +0530,
43,0.5,4.0,46.39456059993245,,46.37971489992924,46.39456059993245,46.87875359994359,46.87875359994359,46.894797399872914,47.17814269987866,47.57946419995278,right,4.0,1,1,0.6863812999799848,212331,001,2024-09-10_16h50.04.560,adpative_staircase,2024.1.5,None,2024-09-10 16h50.09.711597 +0530,
44,0.5,4.0,47.59434589999728,,47.57957619987428,47.59434589999728,48.07866719993763,48.07866719993763,48.09501689998433,48.37864120001905,48.52919759997167,right,4.0,1,1,0.44034089986234903,212331,001,2024-09-10_16h50.04.560,adpative_staircase,2024.1.5,None,2024-09-10 16h50.09.711597 +0530,
45,0.5,4.0,48.544832499930635,,48.52930699987337,48.544832499930635,49.028382799820974,49.028382799820974,49.04501089989208,49.33019269979559,49.59652249980718,left,-4.0,1,1,0.5530916000716388,212331,001,2024-09-10_16h50.04.560,adpative_staircase,2024.1.5,None,2024-09-10 16h50.09.711597 +0530,
46,0.5,3.5,49.61153949983418,,49.596628699917346,49.61153949983418,50.11232229997404,50.11232229997404,50.11232229997404,50.41286449995823,50.56397229991853,right,3.5,0,0,0.4446815000846982,212331,001,2024-09-10_16h50.04.560,adpative_staircase,2024.1.5,None,2024-09-10 16h50.09.711597 +0530,
47,0.5,4.0,50.57822689996101,,50.56408999999985,50.57822689996101,51.07884309999645,51.07884309999645,51.07884309999645,51.37794929998927,51.61586549994536,right,4.0,1,1,0.5265552001073956,212331,001,2024-09-10_16h50.04.560,adpative_staircase,2024.1.5,None,2024-09-10 16h50.09.711597 +0530,
48,0.5,4.0,51.62816379987635,,51.616053899982944,51.62816379987635,52.12837209994905,52.12837209994905,52.12837209994905,52.427901099901646,52.61450419994071,left,-4.0,1,1,0.4720859001390636,212331,001,2024-09-10_16h50.04.560,adpative_staircase,2024.1.5,None,2024-09-10 16h50.09.711597 +0530,
49,0.5,4.0,52.628172899829224,,52.61464659986086,52.628172899829224,53.12796389986761,53.12796389986761,53.12796389986761,53.42877659993246,54.04794800002128,left,-4.0,1,1,0.9101285000797361,212331,001,2024-09-10_16h50.04.560,adpative_staircase,2024.1.5,None,2024-09-10 16h50.09.711597 +0530,
50,0.5,3.5,54.0611268999055,,54.04801699984819,54.0611268999055,54.56260839989409,54.56260839989409,54.56260839989409,54.877756299916655,55.14580919989385,left,-3.5,1,1,0.5674656999763101,212331,001,2024-09-10_16h50.04.560,adpative_staircase,2024.1.5,None,2024-09-10 16h50.09.711597 +0530,
51,0.5,3.5,55.16124189994298,,55.14591869991273,55.16124189994298,55.64507259987295,55.64507259987295,55.6616254998371,55.944712799973786,56.17908109980635,right,3.5,1,1,0.5232724000234157,212331,001,2024-09-10_16h50.04.560,adpative_staircase,2024.1.5,None,2024-09-10 16h50.09.711597 +0530,
52,0.5,3.5,56.19461250002496,,56.17916389997117,56.19461250002496,56.678644199855626,56.678644199855626,56.696508300025016,56.97978089982644,57.12952600000426,left,-3.5,1,1,0.4409330999478698,212331,001,2024-09-10_16h50.04.560,adpative_staircase,2024.1.5,None,2024-09-10 16h50.09.711597 +0530,
53,0.5,3.0,57.1447544998955,,57.129639899823815,57.1447544998955,57.64521089987829,57.64521089987829,57.64521089987829,57.94603079999797,58.113245599903166,right,3.0,0,0,0.4604646998923272,212331,001,2024-09-10_16h50.04.560,adpative_staircase,2024.1.5,None,2024-09-10 16h50.09.711597 +0530,
54,0.5,3.5,58.12902279989794,,58.11333530000411,58.12902279989794,58.62846129992977,58.62846129992977,58.62846129992977,58.92914339993149,59.146192099899054,right,3.5,0,0,0.5030408001039177,212331,001,2024-09-10_16h50.04.560,adpative_staircase,2024.1.5,None,2024-09-10 16h50.09.711597 +0530,
55,0.5,4.0,59.16186749981716,,59.14629859989509,59.16186749981716,59.64545760001056,59.64545760001056,59.66353499982506,59.94489759998396,60.029334399849176,right,4.0,1,1,0.3757575999479741,212331,001,2024-09-10_16h50.04.560,adpative_staircase,2024.1.5,None,2024-09-10 16h50.09.711597 +0530,
56,0.5,4.0,60.04463329981081,,60.02946509979665,60.04463329981081,60.54512529983185,60.54512529983185,60.54512529983185,60.84478279994801,60.896306299837306,right,4.0,0,0,0.33894340018741786,212331,001,2024-09-10_16h50.04.560,adpative_staircase,2024.1.5,None,2024-09-10 16h50.09.711597 +0530,
57,0.5,4.5,60.91119239991531,,60.89644129993394,60.91119239991531,61.41039739991538,61.41039739991538,61.41039739991538,61.71232339995913,61.932201699819416,left,-4.5,1,1,0.5184031999669969,212331,001,2024-09-10_16h50.04.560,adpative_staircase,2024.1.5,None,2024-09-10 16h50.09.711597 +0530,
58,0.5,4.5,61.94575840001926,,61.93234859989025,61.94575840001926,62.44473519991152,62.44473519991152,62.46136389998719,62.74523209990002,63.04531880002469,right,4.5,1,1,0.5858034000266343,212331,001,2024-09-10_16h50.04.560,adpative_staircase,2024.1.5,None,2024-09-10 16h50.09.711597 +0530,
59,0.5,4.5,63.06108839996159,,63.04541579983197,63.06108839996159,63.54475839994848,63.54475839994848,63.56036249990575,63.8448981998954,63.92848419980146,left,-4.5,1,1,0.3708308001514524,212331,001,2024-09-10_16h50.04.560,adpative_staircase,2024.1.5,None,2024-09-10 16h50.09.711597 +0530,
60,0.5,4.0,63.944585299817845,,63.92856349982321,63.944585299817845,64.42899649986066,64.42899649986066,64.44600039999932,64.72918199980631,64.82866130000912,right,4.0,0,0,0.39343130006454885,212331,001,2024-09-10_16h50.04.560,adpative_staircase,2024.1.5,None,2024-09-10 16h50.09.711597 +0530,
61,0.5,4.5,64.84447309980169,,64.82873829989694,64.84447309980169,65.3451087998692,65.3451087998692,65.3451087998692,65.64597969991155,65.78038729983382,right,4.5,1,1,0.43092089984565973,212331,001,2024-09-10_16h50.04.560,adpative_staircase,2024.1.5,None,2024-09-10 16h50.09.711597 +0530,
62,0.5,4.5,65.79334299988113,,65.78049049992114,65.79334299988113,66.29433760000393,66.29433760000393,66.29433760000393,66.59509189985693,66.62835529982112,left,-4.5,1,1,0.3312898001167923,212331,001,2024-09-10_16h50.04.560,adpative_staircase,2024.1.5,None,2024-09-10 16h50.09.711597 +0530,
63,0.5,4.5,66.64458189997822,,66.6284417998977,66.64458189997822,67.12815629993565,67.12815629993565,67.144334099954,67.42842029989697,67.67947999993339,left,-4.5,1,1,0.5378970000892878,212331,001,2024-09-10_16h50.04.560,adpative_staircase,2024.1.5,None,2024-09-10 16h50.09.711597 +0530,
64,0.5,4.0,67.6941499998793,,67.67959650000557,67.6941499998793,68.19475609995425,68.19475609995425,68.19475609995425,68.49521919991821,68.84612369979732,right,4.0,0,0,0.6354157000314444,212331,001,2024-09-10_16h50.04.560,adpative_staircase,2024.1.5,None,2024-09-10 16h50.09.711597 +0530,
65,0.5,4.5,68.86265439982526,,68.84624859993346,68.86265439982526,69.34522599983029,69.34522599983029,69.36269450001419,69.64621219993569,69.98090650001541,right,4.5,1,1,0.6189393000677228,212331,001,2024-09-10_16h50.04.560,adpative_staircase,2024.1.5,None,2024-09-10 16h50.09.711597 +0530,
66,0.5,4.5,69.99569109990261,,69.98109789984301,69.99569109990261,70.49530099984258,70.49530099984258,70.49530099984258,70.7956798998639,70.91465189983137,right,4.5,1,1,0.4093214999884367,212331,001,2024-09-10_16h50.04.560,adpative_staircase,2024.1.5,None,2024-09-10 16h50.09.711597 +0530,
67,0.5,4.5,70.92920919996686,,70.91486609983258,70.92920919996686,71.42890559998341,71.42890559998341,71.42890559998341,71.72973589994945,71.94865299994126,left,-4.5,1,1,0.5162102999165654,212331,001,2024-09-10_16h50.04.560,adpative_staircase,2024.1.5,None,2024-09-10 16h50.09.711597 +0530,
68,0.5,4.0,71.96212069992907,,71.94889150001109,71.96212069992907,72.46291659981944,72.46291659981944,72.46291659981944,72.76299640000798,73.06398029997945,right,4.0,1,1,0.5914002999197692,212331,001,2024-09-10_16h50.04.560,adpative_staircase,2024.1.5,None,2024-09-10 16h50.09.711597 +0530,
69,0.5,4.0,73.07872319989838,,73.06416449998505,73.07872319989838,73.57932239980437,73.57932239980437,73.57932239980437,73.87908669980243,74.08140079979785,right,4.0,1,1,0.48511769995093346,212331,001,2024-09-10_16h50.04.560,adpative_staircase,2024.1.5,None,2024-09-10 16h50.09.711597 +0530,
70,0.5,4.0,74.09583629993722,,74.08159750001505,74.09583629993722,74.59567660000175,74.59567660000175,74.59567660000175,74.89553769980557,75.23162329988554,left,-4.0,1,1,0.6283458999823779,212331,001,2024-09-10_16h50.04.560,adpative_staircase,2024.1.5,None,2024-09-10 16h50.09.711597 +0530,
71,0.5,3.5,75.24562589987181,,75.23184989998117,75.24562589987181,75.74593480001204,75.74593480001204,75.74593480001204,76.0444263999816,76.41554369986989,right,3.5,1,1,0.6631247000768781,212331,001,2024-09-10_16h50.04.560,adpative_staircase,2024.1.5,None,2024-09-10 16h50.09.711597 +0530,
72,0.5,3.5,76.42885349993594,,76.41572940000333,76.42885349993594,76.92900349991396,76.92900349991396,76.92900349991396,77.22870719991624,77.36434769979678,left,-3.5,1,1,0.42635570000857115,212331,001,2024-09-10_16h50.04.560,adpative_staircase,2024.1.5,None,2024-09-10 16h50.09.711597 +0530,
73,0.5,3.5,77.37879380001687,,77.36453479994088,77.37879380001687,77.87873769993894,77.87873769993894,77.87873769993894,78.17891060002148,78.58096669986844,right,3.5,1,1,0.6953863000962883,212331,001,2024-09-10_16h50.04.560,adpative_staircase,2024.1.5,None,2024-09-10 16h50.09.711597 +0530,
74,0.5,3.0,78.59591139992699,,78.58112200000323,78.59591139992699,79.09523229999468,79.09523229999468,79.09523229999468,79.3956408998929,79.56586569990031,right,3.0,0,0,0.467317899921909,212331,001,2024-09-10_16h50.04.560,adpative_staircase,2024.1.5,None,2024-09-10 16h50.09.711597 +0530,
75,0.5,3.5,79.57863819994964,,79.56604789989069,79.57863819994964,80.07918439991772,80.07918439991772,80.07918439991772,80.37917209998704,80.63158629997633,left,-3.5,1,1,0.5489968999754637,212331,001,2024-09-10_16h50.04.560,adpative_staircase,2024.1.5,None,2024-09-10 16h50.09.711597 +0530,
76,0.5,3.5,80.64558499981649,,80.63174350000918,80.64558499981649,81.14615879999474,81.14615879999474,81.14615879999474,81.44596539996564,81.68237910000607,left,-3.5,1,1,0.5244208001531661,212331,001,2024-09-10_16h50.04.560,adpative_staircase,2024.1.5,None,2024-09-10 16h50.09.711597 +0530,
77,0.5,3.5,81.69627640000544,,81.68260529986583,81.69627640000544,82.19524609996006,82.19524609996006,82.19524609996006,82.49556929990649,82.76521889981814,right,3.5,1,1,0.5637721000239253,212331,001,2024-09-10_16h50.04.560,adpative_staircase,2024.1.5,None,2024-09-10 16h50.09.711597 +0530,
78,0.5,3.0,82.77805490000173,,82.76541039999574,82.77805490000173,83.27881679986604,83.27881679986604,83.27881679986604,83.57921889983118,83.86400179984048,right,3.0,1,1,0.5799704999662936,212331,001,2024-09-10_16h50.04.560,adpative_staircase,2024.1.5,None,2024-09-10 16h50.09.711597 +0530,
79,0.5,3.0,83.87874969979748,,83.86415869998746,83.87874969979748,84.37875289982185,84.37875289982185,84.37875289982185,84.68567479983903,84.97863459982909,right,3.0,1,1,0.5888541000895202,212331,001,2024-09-10_16h50.04.560,adpative_staircase,2024.1.5,None,2024-09-10 16h50.09.711597 +0530,
80,0.5,3.0,84.99330919981003,,84.97872409992851,84.99330919981003,85.4783564999234,85.4783564999234,85.49516969989054,85.77870579995215,86.09855559980497,right,3.0,1,1,0.6138446999248117,212331,001,2024-09-10_16h50.04.560,adpative_staircase,2024.1.5,None,2024-09-10 16h50.09.711597 +0530,
81,0.5,2.5,86.11314789997414,,86.09874589997344,86.11314789997414,86.61267719999887,86.61267719999887,86.6286704998929,86.91196399996988,87.04445019993,right,2.5,1,1,0.42330759996548295,212331,001,2024-09-10_16h50.04.560,adpative_staircase,2024.1.5,None,2024-09-10 16h50.09.711597 +0530,
82,0.5,2.5,87.05969509994611,,87.04453079984523,87.05969509994611,87.54527190001681,87.54527190001681,87.5619635998737,87.84571999986656,87.96445259987377,right,2.5,1,1,0.40899799996986985,212331,001,2024-09-10_16h50.04.560,adpative_staircase,2024.1.5,None,2024-09-10 16h50.09.711597 +0530,
83,0.5,2.5,87.97843599994667,,87.96462329989299,87.97843599994667,88.47864869982004,88.47864869982004,88.47864869982004,88.77837740001269,88.96445799991488,left,-2.5,1,1,0.4701621001586318,212331,001,2024-09-10_16h50.04.560,adpative_staircase,2024.1.5,None,2024-09-10 16h50.09.711597 +0530,
84,0.5,2.0,88.97761929989792,,88.9646183999721,88.97761929989792,89.47902909992263,89.47902909992263,89.47902909992263,89.77880209987052,90.51512879994698,right,2.0,1,1,1.0181712000630796,212331,001,2024-09-10_16h50.04.560,adpative_staircase,2024.1.5,None,2024-09-10 16h50.09.711597 +0530,
85,0.5,2.0,90.52913979999721,,90.51532409992069,90.52913979999721,91.0282805999741,91.0282805999741,91.0282805999741,91.32873569987714,91.61492530000396,left,-2.0,1,1,0.5791146999690682,212331,001,2024-09-10_16h50.04.560,adpative_staircase,2024.1.5,None,2024-09-10 16h50.09.711597 +0530,
86,0.5,2.0,91.62928429991007,,91.61511259991676,91.62928429991007,92.12843409995548,92.12843409995548,92.12843409995548,92.428887499962,92.84730179980397,right,2.0,0,0,0.7088818000629544,212331,001,2024-09-10_16h50.04.560,adpative_staircase,2024.1.5,None,2024-09-10 16h50.09.711597 +0530,
87,0.5,2.5,92.86207079980522,,92.84751669992693,92.86207079980522,93.36172689986415,93.36172689986415,93.36172689986415,93.66220549982972,94.09680329984985,right,2.5,0,0,0.7190443999134004,212331,001,2024-09-10_16h50.04.560,adpative_staircase,2024.1.5,None,2024-09-10 16h50.09.711597 +0530,
88,0.5,3.0,94.11158289993182,,94.0969816998113,94.11158289993182,94.61187559994869,94.61187559994869,94.61187559994869,94.91202699998394,94.9475876998622,left,-3.0,0,0,0.3254535000305623,212331,001,2024-09-10_16h50.04.560,adpative_staircase,2024.1.5,None,2024-09-10 16h50.09.711597 +0530,
89,0.5,3.5,94.96231019985862,,94.94778259983286,94.96231019985862,95.46186529984698,95.46186529984698,95.46186529984698,95.76239999989048,96.51347429980524,left,-3.5,1,1,1.0346962998155504,212331,001,2024-09-10_16h50.04.560,adpative_staircase,2024.1.5,None,2024-09-10 16h50.09.711597 +0530,
90,0.5,3.5,96.52864189981483,,96.51366549986415,96.52864189981483,97.02883299998939,97.02883299998939,97.02883299998939,97.32835349999368,97.48190100002103,left,-3.5,1,1,0.44964260002598166,212331,001,2024-09-10_16h50.04.560,adpative_staircase,2024.1.5,None,2024-09-10 16h50.09.711597 +0530,
91,0.5,3.5,97.49500789982267,,97.48205849993974,97.49500789982267,97.99531459994614,97.99531459994614,97.99531459994614,98.29552559996955,98.73102990002371,right,3.5,1,1,0.7319836998358369,212331,001,2024-09-10_16h50.04.560,adpative_staircase,2024.1.5,None,2024-09-10 16h50.09.711597 +0530,
92,0.5,3.0,98.74499739985913,,98.73122660000809,98.74499739985913,99.24516239995137,99.24516239995137,99.24516239995137,99.56133189983666,99.66337829991244,right,3.0,1,1,0.4031053998041898,212331,001,2024-09-10_16h50.04.560,adpative_staircase,2024.1.5,None,2024-09-10 16h50.09.711597 +0530,
93,0.5,3.0,99.67857739981264,,99.66354129998945,99.67857739981264,100.17834979994223,100.17834979994223,100.17834979994223,100.47908409987576,100.64754479983822,right,3.0,1,1,0.45401059999130666,212331,001,2024-09-10_16h50.04.560,adpative_staircase,2024.1.5,None,2024-09-10 16h50.09.711597 +0530,
94,0.5,3.0,100.66185069992207,,100.6477194998879,100.66185069992207,101.1759232999757,101.1759232999757,101.1759232999757,101.4784079999663,101.83045989996754,left,-3.0,1,1,0.6465998999774456,212331,001,2024-09-10_16h50.04.560,adpative_staircase,2024.1.5,None,2024-09-10 16h50.09.711597 +0530,
95,0.5,2.5,101.84531509992667,,101.83071139990352,101.84531509992667,102.34395090001635,102.34395090001635,102.36135999998078,102.64503979985602,102.82777729979716,left,-2.5,1,1,0.4737289999611676,212331,001,2024-09-10_16h50.04.560,adpative_staircase,2024.1.5,None,2024-09-10 16h50.09.711597 +0530,
96,0.5,2.5,102.84307169984095,,102.8278765999712,102.84307169984095,103.34384809993207,103.34384809993207,103.34384809993207,103.6439737000037,103.8142512999475,right,2.5,1,1,0.4650229001417756,212331,001,2024-09-10_16h50.04.560,adpative_staircase,2024.1.5,None,2024-09-10 16h50.09.711597 +0530,
97,0.5,2.5,103.82823839993216,,103.81439369986765,103.82823839993216,104.32697719987482,104.32697719987482,104.34382339986041,104.62739759986289,104.77894059987739,left,-2.5,1,1,0.4424003001768142,212331,001,2024-09-10_16h50.04.560,adpative_staircase,2024.1.5,None,2024-09-10 16h50.09.711597 +0530,
98,0.5,2.0,104.79329769988544,,104.7790494998917,104.79329769988544,105.2945836998988,105.2945836998988,105.2945836998988,105.59485240001231,105.72985599981621,right,2.0,1,1,0.43289000005461276,212331,001,2024-09-10_16h50.04.560,adpative_staircase,2024.1.5,None,2024-09-10 16h50.09.711597 +0530,
99,0.5,2.0,105.74507740000263,,105.72995819989592,105.74507740000263,106.24478579987772,106.24478579987772,106.24478579987772,106.54461649991572,106.61328629986383,left,-2.0,1,1,0.3515929998829961,212331,001,2024-09-10_16h50.04.560,adpative_staircase,2024.1.5,None,2024-09-10 16h50.09.711597 +0530,
